Folder: fun/project/DATA/TGA

File: TGA.csv
date,time,price,change,volume,avg_volume,market_cap,income,sales,p_b,p_e,f_p_e,peg,p_c,p_s,quick_ratio,current_ratio,debt_eq,sma20,sma50,sma200,rsi,roa,roe,roi,gross_margin,oper_margin,profit_margin,shs_outstand,shs_float,short_float,short_ratio,target_price,high_y,low_y,prev_close,eps,sales_q_to_q,eps_q_to_q,insider_own,insider_trans,inst_own,inst_trans,dividend,dividend_percent,employees,recom
2018-10-17,04:00:59 ,3.11,2.98%,"318,631",484.77K,219.50M,-12.00M,179.00M,1.09,-,2.85,-,5.76,1.23,2.70,2.90,0.00,-6.16%,-6.59%,35.12%,42.99,-3.70%,-5.80%,-21.90%,70.10%,30.90%,-6.70%,70.58M,58.10M,0.48%,0.57,2.17,-24.70%,158.11%,3.02,-0.17,69.40%,113.00%,6.30%,0.00%,38.00%,-4.06%,0.14,4.50%,89,2.50
2018-10-17,22:56:50 ,3.09,-0.64%,"230,143",484.77K,218.09M,-12.00M,179.00M,1.08,-,2.83,-,5.72,1.22,2.70,2.90,0.00,-6.36%,-7.20%,33.76%,40.84,-3.70%,-5.80%,-21.90%,70.10%,30.90%,-6.70%,70.58M,58.10M,0.48%,0.57,2.17,-25.18%,156.45%,3.11,-0.17,69.40%,113.00%,6.30%,0.00%,38.00%,-4.06%,0.14,4.53%,89,2.50
2018-10-18,23:31:44 ,3.02,-2.27%,"676,179",472.74K,213.15M,-12.00M,179.00M,1.06,-,2.77,-,5.59,1.19,2.70,2.90,0.00,-8.07%,-9.25%,30.27%,37.33,-3.70%,-5.80%,-21.90%,70.10%,30.90%,-6.70%,70.58M,58.10M,0.48%,0.59,2.17,-26.88%,150.64%,3.09,-0.17,69.40%,113.00%,6.30%,0.00%,38.00%,-4.06%,0.14,4.64%,89,2.50
2018-10-19,23:38:27 ,2.99,-0.99%,"229,554",467.77K,211.03M,-12.00M,179.00M,1.05,-,2.74,-,5.54,1.18,2.70,2.90,0.00,-8.58%,-10.05%,28.54%,36.51,-3.70%,-5.80%,-21.90%,70.10%,30.90%,-6.70%,70.58M,58.10M,0.48%,0.59,2.17,-27.60%,148.15%,3.02,-0.17,69.40%,113.00%,6.30%,0.00%,38.00%,-4.06%,0.14,4.68%,89,2.50
2018-10-22,21:03:36 ,2.59,-13.38%,"1,288,423",459.71K,187.88M,-12.00M,179.00M,0.91,-,2.38,-,4.93,1.05,2.70,2.90,0.00,-20.41%,-21.98%,10.97%,26.25,-3.70%,-5.80%,-21.90%,70.10%,30.90%,-6.70%,72.54M,58.10M,0.48%,0.60,2.17,-37.29%,114.96%,2.99,-0.17,69.40%,113.00%,6.30%,0.00%,38.00%,-3.95%,0.14,5.41%,89,2.50
2018-10-23,21:04:50 ,2.03,-21.62%,"2,655,298",470.31K,147.26M,-12.00M,179.00M,0.71,-,1.86,-,3.86,0.82,2.70,2.90,0.00,-36.79%,-38.63%,-13.23%,18.06,-3.70%,-5.80%,-21.90%,70.10%,30.90%,-6.70%,72.54M,58.10M,0.48%,0.59,2.17,-50.85%,68.48%,2.59,-0.17,69.40%,113.00%,6.30%,0.00%,38.00%,-3.95%,0.14,6.90%,89,2.50
2018-10-24,21:02:56 ,2.34,15.02%,"1,109,300",505.26K,169.38M,-12.00M,179.00M,0.82,-,2.14,-,4.45,0.95,2.70,2.90,0.00,-25.66%,-28.96%,-0.32%,30.66,-3.70%,-5.80%,-21.90%,70.10%,30.90%,-6.70%,72.54M,58.10M,0.48%,0.55,2.17,-43.46%,93.79%,2.03,-0.17,69.40%,113.00%,6.30%,0.00%,38.00%,-3.95%,0.14,6.00%,89,2.50
2018-10-25,21:04:12 ,2.45,4.93%,"526,121",511.79K,177.72M,-12.00M,179.00M,0.86,-,2.25,-,4.66,0.99,2.70,2.90,0.00,-20.73%,-25.10%,4.39%,34.85,-3.70%,-5.80%,-21.90%,70.10%,30.90%,-6.70%,72.54M,58.10M,0.48%,0.54,2.17,-40.68%,103.34%,2.34,-0.17,69.40%,113.00%,6.30%,0.00%,38.00%,-3.95%,0.14,5.71%,89,2.50
2018-10-26,21:04:13 ,2.45,0.00%,"370,439",514.32K,177.72M,-12.00M,179.00M,0.86,-,2.25,-,4.66,0.99,2.70,2.90,0.00,-19.63%,-24.88%,4.17%,34.80,-3.70%,-5.80%,-21.90%,70.10%,30.90%,-6.70%,72.54M,58.10M,0.48%,0.54,2.17,-40.68%,103.34%,2.45,-0.17,69.40%,113.00%,6.30%,0.00%,38.00%,-3.95%,0.14,5.71%,89,2.50
2018-10-29,20:52:27 ,2.31,-5.71%,"321,060",515.12K,167.27M,-12.00M,179.00M,0.81,-,2.12,-,4.39,0.93,2.70,2.90,0.00,-23.10%,-28.90%,-1.99%,32.45,-3.70%,-5.80%,-21.90%,70.10%,30.90%,-6.70%,72.41M,58.10M,0.52%,0.58,2.17,-44.07%,91.72%,2.45,-0.17,69.40%,113.00%,6.30%,0.00%,38.00%,-3.96%,0.14,6.06%,89,2.50
2018-10-30,20:54:39 ,2.31,0.00%,"537,165",511.75K,167.27M,-12.00M,179.00M,0.81,-,2.12,-,4.39,0.93,2.70,2.90,0.00,-21.52%,-28.54%,-2.16%,32.63,-3.70%,-5.80%,-21.90%,70.10%,30.90%,-6.70%,72.41M,58.10M,0.52%,0.59,2.17,-44.07%,91.72%,2.31,-0.17,69.40%,113.00%,6.30%,0.00%,38.00%,-3.96%,0.14,6.06%,89,2.50
2018-10-31,20:53:07 ,2.31,0.00%,"209,198",514.48K,167.27M,-12.00M,179.00M,0.81,-,2.12,-,4.39,0.93,2.70,2.90,0.00,-19.94%,-28.09%,-2.34%,32.85,-3.70%,-5.80%,-21.90%,70.10%,30.90%,-6.70%,72.41M,58.10M,0.52%,0.59,2.17,-44.07%,91.72%,2.31,-0.17,69.40%,113.00%,6.30%,0.00%,38.00%,-3.96%,0.14,6.06%,89,2.50
2018-11-01,20:55:11 ,2.47,6.93%,"244,209",511.21K,178.85M,-12.00M,179.00M,0.87,-,2.27,-,4.69,1.00,2.70,2.90,0.00,-12.67%,-22.55%,4.24%,39.45,-3.70%,-5.80%,-21.90%,70.10%,30.90%,-6.70%,72.41M,58.10M,0.52%,0.59,2.17,-40.19%,105.00%,2.31,-0.17,69.40%,113.00%,6.30%,0.00%,38.00%,-3.96%,0.14,5.67%,89,2.50
2018-11-03,02:23:56 ,2.36,-4.45%,"217,971",509.89K,170.89M,-12.00M,179.00M,0.83,-,2.17,-,4.49,0.95,2.70,2.90,0.00,-15.28%,-25.53%,-0.62%,37.17,-3.70%,-5.80%,-21.90%,70.10%,30.90%,-6.70%,72.41M,58.10M,0.52%,0.59,2.17,-42.86%,95.87%,2.47,-0.17,69.40%,113.00%,6.30%,0.00%,38.00%,-3.96%,0.14,5.93%,89,2.50
2018-11-05,19:57:04 ,2.37,0.42%,"210,506",509.43K,178.96M,-12.00M,179.00M,0.83,-,2.17,-,4.70,1.00,2.70,2.90,0.00,-13.43%,-24.71%,-0.38%,37.80,-3.70%,-5.80%,-21.90%,70.10%,30.90%,-6.70%,75.51M,58.10M,0.52%,0.59,2.17,-42.62%,96.70%,2.36,-0.17,69.40%,113.00%,6.30%,0.00%,38.00%,-3.80%,0.14,5.91%,89,2.50
2018-11-06,19:54:39 ,2.39,0.84%,"181,261",503.73K,180.47M,-12.00M,179.00M,0.84,-,2.19,-,4.74,1.01,2.70,2.90,0.00,-11.23%,-23.53%,0.27%,37.06,-3.70%,-5.80%,-21.90%,70.10%,30.90%,-6.70%,75.51M,58.10M,0.52%,0.60,2.17,-42.13%,98.36%,2.37,-0.17,69.40%,113.00%,6.30%,0.00%,38.00%,-3.80%,0.14,5.86%,89,2.50
2018-11-07,20:04:03 ,2.41,0.84%,"118,404",499.89K,181.98M,-12.00M,179.00M,0.85,-,2.21,-,4.78,1.02,2.70,2.90,0.00,-8.86%,-22.36%,0.91%,36.59,-3.70%,-5.80%,-21.90%,70.10%,30.90%,-6.70%,75.51M,58.10M,0.52%,0.60,2.17,-41.65%,100.02%,2.39,-0.17,69.40%,113.00%,6.30%,0.00%,38.00%,-3.80%,0.14,5.81%,89,2.50
2018-11-08,20:14:52 ,2.22,-7.88%,"358,571",497.03K,167.63M,-12.00M,179.00M,0.78,-,2.04,-,4.40,0.94,2.70,2.90,0.00,-14.80%,-28.01%,-7.23%,32.16,-3.70%,-5.80%,-21.90%,70.10%,30.90%,-6.70%,75.51M,58.10M,0.52%,0.61,2.17,-46.25%,84.25%,2.41,-0.17,69.40%,113.00%,6.30%,0.00%,38.00%,-3.80%,0.14,6.31%,89,2.50
2018-11-09,20:30:15 ,2.17,-2.25%,"167,938",496.10K,163.86M,-12.00M,179.00M,0.76,-,1.99,-,4.30,0.92,2.70,2.90,0.00,-15.46%,-29.06%,-9.46%,31.26,-3.70%,-5.80%,-21.90%,70.10%,30.90%,-6.70%,75.51M,58.10M,0.52%,0.61,2.17,-47.46%,80.10%,2.22,-0.17,69.40%,113.00%,6.30%,0.00%,38.00%,-3.80%,0.14,6.45%,89,2.50